Folder: nmcuration/completed/Ning_2019/RawDataFromAuthors

Note: completed/Ning_2019/README.md
CURATION JOB TRAVELER

# Ning_2019

**Description:** Published article by Ning *et al.* for the Macromolecules **Virtual Issue**

---

**Traveler Created:** 2020-06-05

**Traveler Modified:** 2020-06-08

**Current Status:** *Completed*

---

## Bibliographic Info

* DOI: 10.1021/acsmacrolett.9b00619
* SI: https://pubs.acs.org/doi/suppl/10.1021/acsmacrolett.9b00619/suppl_file/mz9b00619_si_001.pdf

---

## Datasets of Interest

* Table 1: Sample names with experimental factors (Matrix MW, graft density, NP Loading) as well as response variables melting temp (Tm) and degree of crystallinity (Xc)
* Dielectric spectra (matrix MW = 152k; NP loading = 0,0.10; crystallization process = "quenched","iso 128C")
* Dielectric spectra (matrix MW = 4k; NP loading = 0,0.10; crystallization process = "quenched","iso 105C")
* DMA results (matrix MW = 152k; NP loading = 0,0.10; crystallization process = "quenched","iso 128C")
* DSC results (matrix MX = 152k; NP loading = 0.10; crystallization process = "iso 125C","iso 128C","iso 129.5C")
* SAXS results (matrix MW = 152k; NP loading = 0; crystallization process = "quenched","iso 128C","iso 129.5C","iso 130C")
* SAXS results (matrix MW = 152k; NP loading = 0.10; crystallization process = "quenched","iso 128C","iso 129.5C")
* SAXS results (matrix MW = 4k; NP loading = 0,0.10; crystallization process = "quenched","iso 105C")
* TGA results (matrix MW = 4k,152k)

---

## Events

2020-06-02: (Virtually) added publication, curation job to "Wishlist" (M.E.D.)

2020-06-05: Added datasets of interest (M.E.D.)

2020-06-05: Added job to "In-Progress" (M.E.D.)

2020-06-08: Updated R code (M.E.D.)
* updates for R 4.0 compatibility (NA handling, tibble indices, etc)
* changed output datafiles from `.csv` to `.xlsx`

2020-06-08: Re-generated filesets for all samples (M.E.D.)

2020-06-08: Attempted upload of S1 fileset to NanoMine QA (M.E.D.)
* Not successful (contact administrator error)
* May be issue with R code outputting blank supplementary datafiles (R 4.0 issue with is.null checking)

2020-06-08: Re-attempted upload of S1 fileset to QA (M.E.D.)
* Not successful (files not found error)
* Requires update to R code similar to previous fix (where filenames are being added to Excel template)

2020-06-08: Re-attempted upload of S1 fileset to QA (M.E.D.)
* Received "successful" auto-generated email (5:14pm)

2020-06-08: Uploaded remaining filesets S2-S14 (M.E.D.)
* Files with supplementary images took long time to upload, without indicator of time remaining (S4 fileset, 191MB, took 9 min; S10 fileset, 43.5MB, took 2 min)
* Error with S13, S14 (see Issue 3)
* Confirmed issue with B.H., updated R code and re-ran for those samples

2020-06-08: Successfully uploaded S13, S14 to QA (M.E.D.)

2020-06-08: Moved job to "Completed" (M.E.D.)



---

## Open Issues



---

## Closed Issues

### Issue 1
>Unfortunately, your conversion job xmlconv-r2P2v6Ci5FdCavNsno8Amf was not successful.
>job result code: 21
>error messages: [Conversion Error]

File: SAXS 152K.csv
qq,RPI-XN-HDPE-Q i,HDPE-128,RPI-XN-HDPE-128,RPI-XN-HDPE-130,,q (A^-1),RPI-XN-4-71 in Co,RPI-XN-4-73-1280C,RPI-XN-4-73-1285C,RPI-XN-4-73-1290C,RPI-XN-4-73-1295C,RPI-XN-4-73-1300C,RPI-XN-4-73-1305C
3.70E-03,6.72E+01,2.49E+02,3.97E+02,6.98E+02,,3.70E-03,1.07E+04,15400,19000,19600,16900,8240,16600
5.66E-03,3.53E+01,1.03E+02,1.36E+02,2.19E+02,,5.66E-03,2.70E+03,5100,5860,6220,5630,2730,5450
7.63E-03,2.26E+01,9.80E+01,1.20E+02,1.88E+02,,7.63E-03,1.08E+03,2220,2400,2580,2470,1170,2390
9.60E-03,2.13E+01,1.09E+02,1.40E+02,2.27E+02,,9.60E-03,5.87E+02,1210,1300,1400,1380,629,1360
1.24E-02,2.40E+01,1.18E+02,1.33E+02,1.94E+02,,1.24E-02,3.32E+02,705,766,821,813,337,725
1.51E-02,3.11E+01,7.39E+01,6.97E+01,7.12E+01,,1.51E-02,2.26E+02,454,470,474,471,193,396
1.79E-02,3.68E+01,3.15E+01,2.92E+01,2.54E+01,,1.79E-02,1.78E+02,289,285,286,292,122,253
2.06E-02,3.58E+01,1.51E+01,1.67E+01,2.05E+01,,2.06E-02,1.50E+02,202,200,205,214,88.3,191
2.34E-02,2.82E+01,1.22E+01,1.60E+01,2.26E+01,,2.34E-02,1.31E+02,159,163,169,175,70.6,155
2.61E-02,1.81E+01,1.16E+01,1.53E+01,1.98E+01,,2.61E-02,1.11E+02,136,142,146,150,59.1,129
2.89E-02,1.12E+01,1.04E+01,1.29E+01,1.51E+01,,2.89E-02,9.46E+01,122,129,129,131,51,110
3.16E-02,6.82E+00,7.87E+00,9.14E+00,9.69E+00,,3.16E-02,7.95E+01,105,111,110,109,42.4,91.9
3.44E-02,4.52E+00,5.56E+00,6.07E+00,6.62E+00,,3.44E-02,6.57E+01,84.3,91,89.2,89.3,33.9,74.9
3.71E-02,3.18E+00,3.73E+00,4.38E+00,5.33E+00,,3.71E-02,5.11E+01,63,69.7,68.4,67.5,25.8,57
3.99E-02,2.40E+00,2.87E+00,3.35E+00,4.35E+00,,3.99E-02,3.78E+01,44.6,50.4,49.3,48.7,18.6,41.1
4.26E-02,1.95E+00,2.24E+00,2.61E+00,3.32E+00,,4.26E-02,2.62E+01,31.3,35.6,34.9,34.4,13.2,29
4.54E-02,1.77E+00,1.88E+00,2.18E+00,2.61E+00,,4.54E-02,1.97E+01,23.8,27.2,26.4,25.9,10,21.7
4.81E-02,1.46E+00,1.57E+00,1.75E+00,2.00E+00,,4.81E-02,1.59E+01,19.1,21.6,20.9,20.9,7.97,17.6
5.09E-02,1.28E+00,1.29E+00,1.41E+00,1.58E+00,,5.09E-02,1.35E+01,16.3,18.1,17.6,17.8,6.82,15.2
5.36E-02,9.62E-01,9.74E-01,1.08E+00,1.38E+00,,5.36E-02,1.23E+01,14.3,16.2,15.4,15.5,6.02,13.5
5.64E-02,8.65E-01,8.07E-01,9.66E-01,1.17E+00,,5.64E-02,1.07E+01,12.6,14.1,13.8,13.8,5.29,11.8
5.91E-02,6.61E-01,6.88E-01,8.43E-01,1.03E+00,,5.91E-02,9.62E+00,10.9,12.5,11.9,12,4.7,10.3
6.19E-02,5.54E-01,6.19E-01,7.08E-01,8.57E-01,,6.19E-02,8.37E+00,9.37,10.7,10.4,10.3,4.02,8.88
6.46E-02,4.50E-01,5.30E-01,5.77E-01,7.77E-01,,6.46E-02,7.03E+00,7.82,8.97,8.71,8.61,3.34,7.44
6.74E-02,3.87E-01,4.22E-01,5.24E-01,6.24E-01,,6.74E-02,5.96E+00,6.71,7.51,7.19,7.14,2.81,6.12
7.02E-02,2.99E-01,4.08E-01,4.68E-01,5.58E-01,,7.02E-02,5.00E+00,5.45,6.26,6.11,6.02,2.4,5.12
7.29E-02,2.70E-01,3.29E-01,3.90E-01,4.53E-01,,7.29E-02,4.16E+00,4.58,5.33,5.08,5.11,1.99,4.44
7.57E-02,2.29E-01,3.00E-01,3.40E-01,4.30E-01,,7.57E-02,3.62E+00,4.03,4.65,4.53,4.41,1.68,3.8
7.84E-02,2.17E-01,2.46E-01,2.92E-01,3.46E-01,,7.84E-02,3.23E+00,3.53,4.11,3.89,3.93,1.5,3.35
8.12E-02,1.90E-01,2.08E-01,2.62E-01,3.16E-01,,8.12E-02,2.86E+00,3.15,3.58,3.51,3.47,1.32,2.97
8.39E-02,1.60E-01,1.78E-01,2.37E-01,2.74E-01,,8.39E-02,2.63E+00,2.79,3.2,3.07,3.11,1.19,2.66
8.67E-02,1.37E-01,1.65E-01,1.92E-01,2.46E-01,,8.67E-02,2.31E+00,2.53,2.9,2.74,2.78,1.05,2.33
8.94E-02,1.37E-01,1.48E-01,1.77E-01,1.99E-01,,8.94E-02,2.07E+00,2.26,2.62,2.51,2.48,0.963,2.17
9.22E-02,1.11E-01,1.44E-01,1.53E-01,1.82E-01,,9.22E-02,1.84E+00,2.01,2.31,2.26,2.19,0.843,1.88
9.49E-02,1.06E-01,1.14E-01,1.36E-01,1.70E-01,,9.49E-02,1.67E+00,1.76,2.03,1.96,1.96,0.741,1.73
9.77E-02,8.80E-02,1.06E-01,1.28E-01,1.51E-01,,9.77E-02,1.51E+00,1.6,1.83,1.74,1.75,0.681,1.48
1.00E-01,7.90E-02,9.89E-02,1.08E-01,1.42E-01,,1.00E-01,1.27E+00,1.42,1.63,1.54,1.54,0.606,1.34
1.06E-01,6.45E-02,7.64E-02,9.14E-02,1.11E-01,,1.06E-01,1.03E+00,1.14,1.28,1.28,1.23,0.488,1.06
1.12E-01,5.60E-02,6.49E-02,7.41E-02,9.86E-02,,1.12E-01,8.50E-01,0.967,1.05,1.04,1.03,0.397,0.896
1.18E-01,4.49E-02,5.93E-02,6.23E-02,8.26E-02,,1.18E-01,7.16E-01,0.807,0.871,0.861,0.831,0.337,0.738
1.24E-01,3.86E-02,4.66E-02,5.22E-02,6.73E-02,,1.24E-01,5.89E-01,0.664,0.74,0.736,0.701,0.282,0.619
1.30E-01,3.25E-02,4.17E-02,4.51E-02,5.70E-02,,1.30E-01,5.15E-01,0.562,0.628,0.63,0.6,0.228,0.522
1.36E-01,2.75E-02,3.41E-02,4.00E-02,5.09E-02,,1.36E-01,4.37E-01,0.468,0.527,0.514,0.501,0.202,0.454
1.41E-01,2.54E-02,3.14E-02,3.46E-02,4.47E-02,,1.41E-01,3.74E-01,0.411,0.448,0.454,0.442,0.175,0.376
1.47E-01,2.14E-02,2.67E-02,3.14E-02,3.89E-02,,1.47E-01,3.27E-01,0.354,0.386,0.388,0.371,0.153,0.329
1.53E-01,2.08E-02,2.31E-02,2.74E-02,3.60E-02,,1.53E-01,2.87E-01,0.311,0.338,0.347,0.337,0.133,0.296
1.59E-01,2.00E-02,2.10E-02,2.33E-02,3.31E-02,,1.59E-01,2.47E-01,0.271,0.302,0.297,0.295,0.116,0.251
1.65E-01,1.67E-02,2.04E-02,2.20E-02,2.87E-02,,1.65E-01,2.21E-01,0.245,0.27,0.269,0.251,0.0999,0.223
1.71E-01,1.42E-02,1.84E-02,1.96E-02,2.88E-02,,1.71E-01,2.06E-01,0.213,0.228,0.236,0.224,0.0889,0.201
1.77E-01,1.21E-02,1.70E-02,2.03E-02,2.71E-02,,1.77E-01,1.73E-01,0.192,0.212,0.21,0.206,0.0831,0.18
1.83E-01,1.19E-02,1.50E-02,1.86E-02,2.49E-02,,1.83E-01,1.64E-01,0.172,0.193,0.19,0.171,0.0723,0.161
1.89E-01,1.15E-02,1.55E-02,1.77E-02,2.26E-02,,1.89E-01,1.42E-01,0.153,0.167,0.175,0.163,0.0648,0.144
1.94E-01,1.13E-02,1.52E-02,1.62E-02,2.25E-02,,1.94E-01,1.29E-01,0.141,0.153,0.155,0.146,0.0623,0.136
2.00E-01,1.01E-02,1.34E-02,1.45E-02,2.08E-02,,2.00E-01,1.26E-01,0.129,0.142,0.142,0.133,0.0557,0.122
2.06E-01,1.19E-02,1.35E-02,1.48E-02,1.84E-02,,2.06E-01,1.09E-01,0.114,0.133,0.131,0.122,0.0509,0.112
2.12E-01,9.36E-03,1.30E-02,1.32E-02,1.85E-02,,2.12E-01,1.05E-01,0.109,0.115,0.121,0.111,0.047,0.101
2.18E-01,9.46E-03,1.13E-02,1.32E-02,1.82E-02,,2.18E-01,9.29E-02,0.0998,0.105,0.118,0.109,0.0428,0.0969
2.24E-01,9.07E-03,1.10E-02,1.32E-02,1.80E-02,,2.24E-01,8.93E-02,0.095,0.0972,0.105,0.0939,0.0404,0.0847
2.30E-01,8.69E-03,1.16E-02,1.27E-02,1.54E-02,,2.30E-01,8.10E-02,0.0843,0.0967,0.101,0.0898,0.038,0.0803
2.36E-01,9.50E-03,1.10E-02,1.35E-02,1.58E-02,,2.36E-01,8.01E-02,0.0814,0.0872,0.09,0.0861,0.0347,0.0754
2.41E-01,9.30E-03,1.13E-02,1.21E-02,1.59E-02,,2.41E-01,7.66E-02,0.0748,0.0811,0.0831,0.0798,0.0325,0.0727
2.47E-01,8.00E-03,1.06E-02,1.31E-02,1.76E-02,,2.47E-01,6.90E-02,0.0732,0.0766,0.0848,0.0757,0.0334,0.0683
2.53E-01,8.48E-03,1.03E-02,1.24E-02,1.70E-02,,2.53E-01,6.65E-02,0.0669,0.0729,0.0784,0.0689,0.0301,0.0645
2.59E-01,8.68E-03,9.18E-03,1.25E-02,1.43E-02,,2.59E-01,6.40E-02,0.0662,0.0694,0.0756,0.0686,0.0308,0.061
2.65E-01,7.87E-03,1.03E-02,1.15E-02,1.54E-02,,2.65E-01,5.86E-02,0.0589,0.0648,0.0687,0.0637,0.0275,0.0584
2.71E-01,7.20E-03,1.12E-02,1.15E-02,1.54E-02,,2.71E-01,5.80E-02,0.0597,0.0645,0.0707,0.0596,0.0257,0.0559
2.77E-01,7.56E-03,1.02E-02,1.16E-02,1.53E-02,,2.77E-01,5.53E-02,0.0583,0.0625,0.068,0.0599,0.0262,0.0517
2.83E-01,7.98E-03,1.01E-02,1.10E-02,1.52E-02,,2.83E-01,5.35E-02,0.0585,0.0558,0.0648,0.0567,0.025,0.0499
2.89E-01,7.65E-03,9.51E-03,1.15E-02,1.43E-02,,2.89E-01,5.13E-02,0.0559,0.0553,0.0617,0.0544,0.0243,0.0487
2.94E-01,7.40E-03,1.03E-02,1.12E-02,1.49E-02,,2.94E-01,4.95E-02,0.0564,0.0516,0.0605,0.0519,0.0236,0.0484
3.00E-01,8.13E-03,1.01E-02,1.11E-02,1.52E-02,,3.00E-01,4.86E-02,0.0508,0.0522,0.0586,0.0532,0.023,0.0446
3.06E-01,7.76E-03,9.65E-03,1.14E-02,1.48E-02,,3.06E-01,4.84E-02,0.0497,0.0464,0.0576,0.0478,0.0227,0.0437
3.12E-01,7.36E-03,9.49E-03,1.13E-02,1.49E-02,,3.12E-01,4.51E-02,0.0504,0.046,0.0559,0.0467,0.0225,0.044
3.18E-01,7.13E-03,9.31E-03,1.03E-02,1.48E-02,,3.18E-01,4.37E-02,0.048,0.0461,0.0579,0.0464,0.0215,0.0405
3.24E-01,7.48E-03,9.32E-03,1.06E-02,1.46E-02,,3.24E-01,4.16E-02,0.0482,0.0447,0.0545,0.0448,0.0216,0.0409
3.30E-01,7.71E-03,9.43E-03,1.03E-02,1.44E-02,,3.30E-01,4.24E-02,0.0476,0.0456,0.0535,0.0436,0.0207,0.041
3.36E-01,7.31E-03,1.01E-02,1.10E-02,1.47E-02,,3.36E-01,4.38E-02,0.046,0.0419,0.0502,0.0427,0.0201,0.038
3.41E-01,7.30E-03,8.85E-03,1.03E-02,1.45E-02,,3.41E-01,4.07E-02,0.0443,0.045,0.0528,0.041,0.0201,0.0388
3.47E-01,7.24E-03,1.02E-02,1.11E-02,1.33E-02,,3.47E-01,4.10E-02,0.045,0.0403,0.0496,0.0406,0.0204,0.0371
3.53E-01,7.08E-03,9.63E-03,1.09E-02,1.40E-02,,3.53E-01,3.72E-02,0.0443,0.0398,0.0494,0.041,0.0202,0.0353
3.59E-01,7.76E-03,1.05E-02,9.91E-03,1.33E-02,,3.59E-01,3.85E-02,0.0427,0.0406,0.0464,0.0365,0.0185,0.0354
3.65E-01,7.48E-03,9.58E-03,1.08E-02,1.45E-02,,3.65E-01,3.83E-02,0.0404,0.0376,0.0478,0.0391,0.0179,0.0343
3.71E-01,7.55E-03,9.77E-03,9.82E-03,1.55E-02,,3.71E-01,3.59E-02,0.0416,0.0396,0.051,0.0372,0.0188,0.0344
3.77E-01,7.79E-03,9.93E-03,1.10E-02,1.40E-02,,3.77E-01,3.81E-02,0.0409,0.0373,0.0457,0.0352,0.0181,0.0321
3.83E-01,8.28E-03,9.33E-03,1.01E-02,1.41E-02,,3.83E-01,3.25E-02,0.0406,0.0386,0.0492,0.0366,0.0187,0.0341
3.89E-01,7.03E-03,9.33E-03,1.06E-02,1.46E-02,,3.89E-01,3.39E-02,0.0421,0.0384,0.0439,0.0365,0.0171,0.0333
3.94E-01,7.08E-03,8.87E-03,1.07E-02,1.44E-02,,3.94E-01,3.32E-02,0.0412,0.0366,0.0442,0.0352,0.0176,0.0323
4.10E-01,7.86E-03,8.97E-03,1.01E-02,1.34E-02,,4.10E-01,3.28E-02,0.0361,0.0321,0.0404,0.033,0.0164,0.0297
4.27E-01,7.80E-03,8.79E-03,1.02E-02,1.31E-02,,4.27E-01,3.06E-02,0.0352,0.0323,0.0402,0.0322,0.0154,0.0294
4.43E-01,7.70E-03,9.09E-03,1.00E-02,1.35E-02,,4.43E-01,3.05E-02,0.0343,0.0317,0.039,0.031,0.0144,0.0286
4.60E-01,7.73E-03,8.85E-03,1.01E-02,1.33E-02,,4.60E-01,2.99E-02,0.0338,0.0308,0.0382,0.0308,0.0148,0.0289
4.76E-01,7.76E-03,8.86E-03,1.01E-02,1.33E-02,,4.76E-01,2.89E-02,0.0337,0.0316,0.0375,0.0297,0.0143,0.0274
4.93E-01,7.80E-03,8.67E-03,1.01E-02,1.34E-02,,4.93E-01,2.90E-02,0.0328,0.0293,0.0378,0.0304,0.0139,0.0276
5.10E-01,7.67E-03,8.97E-03,1.02E-02,1.35E-02,,5.10E-01,2.96E-02,0.0326,0.0305,0.0375,0.0292,0.014,0.0276
5.26E-01,7.92E-03,9.00E-03,1.03E-02,1.35E-02,,5.26E-01,2.86E-02,0.0331,0.0303,0.0375,0.0304,0.0146,0.0277
5.43E-01,8.14E-03,9.19E-03,1.04E-02,1.35E-02,,5.43E-01,2.77E-02,0.033,0.0303,0.0373,0.0298,0.0138,0.0274
5.59E-01,7.93E-03,9.08E-03,1.06E-02,1.35E-02,,5.60E-01,2.90E-02,0.0327,0.0304,0.0377,0.0304,0.014,0.0281
5.76E-01,8.24E-03,9.18E-03,1.07E-02,1.38E-02,,5.76E-01,2.89E-02,0.0335,0.0318,0.0382,0.0297,0.0141,0.0283
5.80E-01,8.14E-03,9.04E-03,1.06E-02,1.39E-02,,5.80E-01,2.87E-02,0.0342,0.0311,0.039,0.0303,0.0142,0.0279
5.84E-01,8.24E-03,9.13E-03,1.06E-02,1.39E-02,,5.84E-01,#VALUE!,#VALUE!,#VALUE!,#VALUE!,#VALUE!,#VALUE!,#VALUE!
5.89E-01,8.40E-03,9.25E-03,1.06E-02,1.41E-02,,5.89E-01,#VALUE!,#VALUE!,#VALUE!,#VALUE!,#VALUE!,#VALUE!,#VALUE!
5.93E-01,8.26E-03,9.43E-03,1.08E-02,1.41E-02,,5.93E-01,#VALUE!,#VALUE!,#VALUE!,#VALUE!,#VALUE!,#VALUE!,#VALUE!
5.97E-01,8.36E-03,9.24E-03,1.09E-02,1.41E-02,,5.97E-01,#VALUE!,#VALUE!,#VALUE!,#VALUE!,#VALUE!,#VALUE!,#VALUE!
6.01E-01,8.30E-03,9.36E-03,1.09E-02,1.39E-02,,6.01E-01,2.85E-02,0.0337,0.0326,0.0391,0.0309,0.0143,0.0285
6.13E-01,8.55E-03,9.52E-03,1.06E-02,1.41E-02,,6.14E-01,2.85E-02,0.0347,0.0325,0.0389,0.0309,0.0145,0.0292
6.26E-01,8.50E-03,9.62E-03,1.10E-02,1.45E-02,,6.26E-01,2.93E-02,0.0346,0.0321,0.0382,0.0321,0.0143,0.0283
6.38E-01,8.68E-03,9.57E-03,1.11E-02,1.44E-02,,6.38E-01,2.91E-02,0.0352,0.032,0.0406,0.0321,0.0144,0.0288
6.51E-01,8.88E-03,9.76E-03,1.14E-02,1.47E-02,,6.51E-01,2.98E-02,0.0342,0.0329,0.0394,0.032,0.0144,0.0289
6.63E-01,8.79E-03,9.81E-03,1.15E-02,1.49E-02,,6.63E-01,2.92E-02,0.0356,0.0336,0.0397,0.0331,0.0146,0.0299
6.76E-01,8.71E-03,1.01E-02,1.14E-02,1.52E-02,,6.76E-01,2.93E-02,0.0361,0.0351,0.0408,0.033,0.0152,0.0299
6.88E-01,9.03E-03,1.00E-02,1.17E-02,1.52E-02,,6.88E-01,2.89E-02,0.0368,0.0355,0.0416,0.034,0.0148,0.0307
7.01E-01,9.22E-03,1.03E-02,1.18E-02,1.53E-02,,7.01E-01,2.87E-02,0.037,0.0358,0.0424,0.0346,0.015,0.0313
7.13E-01,9.31E-03,1.05E-02,1.20E-02,1.53E-02,,7.13E-01,3.07E-02,0.0381,0.0367,0.0423,0.0352,0.0155,0.0311
7.26E-01,9.63E-03,1.07E-02,1.22E-02,1.59E-02,,7.26E-01,2.96E-02,0.0382,0.0371,0.0438,0.0357,0.0159,0.0326
7.38E-01,9.55E-03,1.08E-02,1.24E-02,1.61E-02,,7.38E-01,2.96E-02,0.0391,0.0371,0.0437,0.037,0.0166,0.0322
7.50E-01,9.93E-03,1.11E-02,1.25E-02,1.64E-02,,7.51E-01,3.15E-02,0.0401,0.0389,0.0443,0.0369,0.0166,0.0331
7.63E-01,1.01E-02,1.12E-02,1.26E-02,1.64E-02,,7.63E-01,3.12E-02,0.0407,0.0397,0.0462,0.0376,0.0168,0.0349
7.75E-01,1.04E-02,1.14E-02,1.30E-02,1.72E-02,,7.75E-01,3.14E-02,0.0414,0.041,0.0458,0.0393,0.0172,0.0349
7.88E-01,1.05E-02,1.17E-02,1.33E-02,1.72E-02,,7.88E-01,3.20E-02,0.0414,0.0411,0.0479,0.0395,0.0174,0.0354
8.00E-01,1.07E-02,1.17E-02,1.36E-02,1.76E-02,,8.00E-01,3.30E-02,0.0422,0.0428,0.0483,0.0394,0.0176,0.0362
8.13E-01,1.10E-02,1.21E-02,1.39E-02,1.79E-02,,8.13E-01,3.35E-02,0.0434,0.0425,0.0483,0.0403,0.0179,0.0367
8.25E-01,1.12E-02,1.21E-02,1.40E-02,1.84E-02,,8.25E-01,3.35E-02,0.0436,0.0424,0.0487,0.0408,0.0179,0.036
8.38E-01,1.14E-02,1.26E-02,1.44E-02,1.87E-02,,8.38E-01,3.40E-02,0.0438,0.0429,0.0492,0.0413,0.018,0.0368
8.50E-01,1.15E-02,1.30E-02,1.48E-02,1.92E-02,,8.50E-01,3.48E-02,0.0433,0.0422,0.0499,0.0416,0.0183,0.0374
8.63E-01,1.19E-02,1.32E-02,1.52E-02,1.93E-02,,8.63E-01,3.52E-02,0.0449,0.0442,0.05,0.0421,0.018,0.0377
8.75E-01,1.24E-02,1.34E-02,1.56E-02,2.00E-02,,8.75E-01,3.57E-02,0.0448,0.0443,0.0499,0.0419,0.0182,0.0379
8.87E-01,1.28E-02,1.37E-02,1.58E-02,2.03E-02,,8.88E-01,3.71E-02,0.0447,0.044,0.0506,0.0428,0.0185,0.0379
9.00E-01,1.29E-02,1.40E-02,1.61E-02,2.11E-02,,9.00E-01,3.78E-02,0.0456,0.0448,0.0519,0.0434,0.0186,0.0387
9.12E-01,1.32E-02,1.44E-02,1.67E-02,2.15E-02,,9.13E-01,3.82E-02,0.0462,0.0455,0.0511,0.0434,0.019,0.0385
9.25E-01,1.36E-02,1.47E-02,1.71E-02,2.19E-02,,9.25E-01,4.02E-02,0.0464,0.0459,0.0522,0.0438,0.019,0.0393
9.37E-01,1.43E-02,1.51E-02,1.76E-02,2.26E-02,,9.37E-01,4.06E-02,0.0471,0.0461,0.0526,0.0453,0.0192,0.0387
9.50E-01,1.46E-02,1.55E-02,1.82E-02,2.31E-02,,9.50E-01,4.09E-02,0.0479,0.0475,0.054,0.0449,0.0192,0.0402
9.62E-01,1.51E-02,1.61E-02,1.87E-02,2.42E-02,,9.62E-01,4.35E-02,0.0482,0.0476,0.0557,0.0454,0.0199,0.0414
9.75E-01,1.54E-02,1.64E-02,1.92E-02,2.48E-02,,9.75E-01,4.48E-02,0.0494,0.0504,0.057,0.0458,0.0205,0.0415
9.87E-01,1.62E-02,1.69E-02,1.97E-02,2.56E-02,,9.87E-01,4.70E-02,0.051,0.0503,0.0577,0.0468,0.0206,0.0425
1.00E+00,1.67E-02,1.73E-02,2.05E-02,2.63E-02,,1.00E+00,4.73E-02,0.0515,0.0502,0.0588,0.0482,0.0211,0.0435
1.01E+00,1.72E-02,1.79E-02,2.13E-02,2.73E-02,,1.01E+00,5.00E-02,0.0531,0.0529,0.0598,0.0486,0.0221,0.0444
1.02E+00,1.81E-02,1.86E-02,2.23E-02,2.81E-02,,1.02E+00,5.12E-02,0.0553,0.0539,0.0609,0.0508,0.0224,0.045
1.04E+00,1.87E-02,1.95E-02,2.30E-02,2.94E-02,,1.04E+00,5.40E-02,0.0566,0.0544,0.0625,0.0519,0.0233,0.0474
1.05E+00,1.96E-02,2.04E-02,2.38E-02,3.04E-02,,1.05E+00,5.55E-02,0.0571,0.0572,0.0649,0.0515,0.0241,0.0482
1.06E+00,2.04E-02,2.11E-02,2.50E-02,3.21E-02,,1.06E+00,5.82E-02,0.06,0.059,0.0665,0.0558,0.0247,0.0511
1.07E+00,2.17E-02,2.22E-02,2.61E-02,3.33E-02,,1.07E+00,5.92E-02,0.0619,0.0613,0.069,0.0572,0.0256,0.0517
1.09E+00,2.26E-02,2.28E-02,2.74E-02,3.49E-02,,1.09E+00,6.21E-02,0.0642,0.0644,0.0727,0.0592,0.0261,0.0539
1.10E+00,2.38E-02,2.43E-02,2.84E-02,3.61E-02,,1.10E+00,6.48E-02,0.0669,0.0656,0.0746,0.0624,0.0272,0.0551
1.11E+00,2.51E-02,2.51E-02,2.97E-02,3.82E-02,,1.11E+00,6.86E-02,0.0688,0.0692,0.0772,0.064,0.0277,0.0579
1.12E+00,2.65E-02,2.65E-02,3.10E-02,3.97E-02,,1.12E+00,7.07E-02,0.0721,0.0718,0.0813,0.0672,0.0294,0.0606
1.14E+00,2.78E-02,2.77E-02,3.27E-02,4.12E-02,,1.14E+00,7.48E-02,0.0758,0.0739,0.0824,0.0701,0.0314,0.0624
1.15E+00,2.93E-02,2.89E-02,3.45E-02,4.36E-02,,1.15E+00,7.82E-02,0.0791,0.0779,0.0874,0.0716,0.0319,0.0653
1.16E+00,3.11E-02,3.06E-02,3.65E-02,4.61E-02,,1.16E+00,8.25E-02,0.0808,0.081,0.091,0.0764,0.0327,0.0685
1.17E+00,3.25E-02,3.22E-02,3.81E-02,4.85E-02,,1.17E+00,8.75E-02,0.085,0.0835,0.0933,0.0789,0.0349,0.0716
1.19E+00,3.44E-02,3.36E-02,3.99E-02,5.10E-02,,1.19E+00,9.19E-02,0.0892,0.0899,0.101,0.0828,0.0361,0.0758
1.20E+00,3.65E-02,3.58E-02,4.24E-02,5.37E-02,,1.20E+00,9.44E-02,0.0919,0.091,0.104,0.0856,0.0374,0.0789
1.21E+00,3.91E-02,3.77E-02,4.48E-02,5.62E-02,,1.21E+00,1.01E-01,0.0994,0.0992,0.108,0.0903,0.0395,0.0826
1.22E+00,4.13E-02,3.94E-02,4.78E-02,5.92E-02,,1.22E+00,1.04E-01,0.101,0.101,0.112,0.0949,0.0415,0.0867
1.24E+00,4.33E-02,4.18E-02,5.05E-02,6.20E-02,,1.24E+00,1.12E-01,0.107,0.109,0.118,0.0982,0.0426,0.0894
1.25E+00,4.63E-02,4.44E-02,5.33E-02,6.64E-02,,1.25E+00,1.18E-01,0.115,0.113,0.122,0.105,0.0445,0.0959
1.26E+00,4.88E-02,4.64E-02,5.54E-02,6.92E-02,,1.26E+00,1.25E-01,0.115,0.119,0.128,0.108,0.0466,0.099
1.27E+00,5.15E-02,4.87E-02,5.92E-02,7.30E-02,,1.27E+00,1.31E-01,0.125,0.126,0.136,0.113,0.0491,0.105
1.29E+00,5.47E-02,5.14E-02,6.20E-02,7.69E-02,,1.29E+00,1.37E-01,0.128,0.128,0.14,0.121,0.051,0.111
1.30E+00,5.74E-02,5.38E-02,6.53E-02,8.01E-02,,1.30E+00,1.44E-01,0.135,0.137,0.145,0.123,0.0526,0.114
1.31E+00,5.93E-02,5.62E-02,6.77E-02,8.40E-02,,1.31E+00,1.46E-01,0.141,0.14,0.149,0.13,0.0559,0.12
1.32E+00,6.23E-02,5.83E-02,7.12E-02,8.74E-02,,1.32E+00,1.54E-01,0.149,0.147,0.157,0.136,0.057,0.123
1.34E+00,6.58E-02,6.19E-02,7.62E-02,9.49E-02,,1.34E+00,1.61E-01,0.163,0.156,0.168,0.145,0.0628,0.131
1.35E+00,6.69E-02,6.41E-02,7.88E-02,9.66E-02,,1.35E+00,1.62E-01,0.169,0.159,0.168,0.145,0.0633,0.133
1.36E+00,6.75E-02,6.37E-02,7.78E-02,9.46E-02,,1.36E+00,1.68E-01,0.162,0.16,0.17,0.147,0.062,0.135
1.37E+00,6.78E-02,6.40E-02,7.78E-02,9.58E-02,,1.37E+00,1.69E-01,0.164,0.165,0.175,0.15,0.0622,0.137
1.39E+00,6.82E-02,6.57E-02,7.84E-02,9.70E-02,,1.39E+00,1.71E-01,0.17,0.171,0.176,0.153,0.0645,0.142
1.40E+00,6.97E-02,6.55E-02,8.13E-02,9.97E-02,,1.40E+00,1.74E-01,0.169,0.17,0.182,0.157,0.0642,0.143
1.41E+00,7.08E-02,6.77E-02,8.36E-02,1.03E-01,,1.41E+00,1.78E-01,0.176,0.178,0.188,0.161,0.0663,0.149
1.42E+00,7.44E-02,7.16E-02,8.87E-02,1.10E-01,,1.42E+00,1.85E-01,0.184,0.186,0.202,0.175,0.0731,0.158
1.44E+00,7.88E-02,7.81E-02,9.76E-02,1.21E-01,,1.44E+00,2.01E-01,0.202,0.204,0.217,0.19,0.0768,0.171
1.45E+00,9.35E-02,9.28E-02,1.18E-01,1.48E-01,,1.45E+00,2.37E-01,0.244,0.249,0.263,0.228,0.0884,0.206
1.46E+00,1.35E-01,1.36E-01,1.78E-01,2.31E-01,,1.46E+00,3.55E-01,0.386,0.388,0.432,0.371,0.124,0.315
1.47E+00,3.98E-01,4.60E-01,6.85E-01,1.01E+00,,1.47E+00,9.98E-01,1.6,1.76,2.11,1.73,0.415,1.39
1.49E+00,1.32E+00,2.20E+00,2.78E+00,3.81E+00,,1.49E+00,1.85E+00,3.77,4.06,4.47,3.9,1.56,3.85
1.50E+00,7.45E-01,1.13E+00,1.28E+00,1.51E+00,,1.50E+00,9.11E-01,1.29,1.5,1.33,1.26,0.553,1.35
1.51E+00,1.51E-01,1.53E-01,1.79E-01,2.11E-01,,1.51E+00,2.81E-01,0.293,0.293,0.295,0.265,0.111,0.255
1.52E+00,7.49E-02,8.01E-02,9.68E-02,1.20E-01,,1.52E+00,1.77E-01,0.192,0.197,0.199,0.177,0.0767,0.167
1.54E+00,5.68E-02,6.15E-02,7.47E-02,9.05E-02,,1.54E+00,1.44E-01,0.159,0.161,0.172,0.148,0.0625,0.142
1.55E+00,4.83E-02,5.11E-02,6.34E-02,8.02E-02,,1.55E+00,1.31E-01,0.141,0.147,0.155,0.135,0.057,0.129
1.56E+00,4.45E-02,4.71E-02,5.79E-02,7.13E-02,,1.56E+00,1.26E-01,0.139,0.144,0.149,0.131,0.0534,0.114
1.57E+00,4.29E-02,4.47E-02,5.66E-02,6.98E-02,,1.57E+00,1.20E-01,0.13,0.136,0.147,0.124,0.0537,0.118
1.58E+00,4.26E-02,4.61E-02,5.66E-02,7.20E-02,,1.59E+00,1.27E-01,0.129,0.137,0.148,0.13,0.0513,0.121
1.60E+00,4.26E-02,4.62E-02,5.65E-02,7.28E-02,,1.60E+00,1.29E-01,0.127,0.136,0.145,0.13,0.0495,0.117
1.61E+00,4.95E-02,5.08E-02,6.56E-02,8.19E-02,,1.61E+00,1.44E-01,0.144,0.148,0.158,0.138,0.0561,0.132
1.62E+00,6.45E-02,6.68E-02,8.41E-02,1.04E-01,,1.62E+00,1.71E-01,0.159,0.195,0.201,0.166,0.0665,0.161
1.63E+00,1.25E-01,1.38E-01,1.91E-01,2.66E-01,,1.64E+00,3.47E-01,0.335,0.451,0.573,0.424,0.119,0.381
1.65E+00,3.58E-01,5.77E-01,7.36E-01,1.07E+00,,1.65E+00,4.68E-01,0.886,1.17,1.29,1.36,0.405,1.1
,,,,,,0.00E+00,,0,0,0,,,